ARQUIVO DE MEDIDA
Usuário: 
Amostra: 
Comentário: 
Parâmetros: vmode 1 sen 27 acgain 0 tc 10 23.000000 4.000000
Magnitude (mV)	Comprimento de onda(nm)
0.100000	200.000000
0.100000	209.993518
0.100000	219.997843
0.100000	229.999691
0.100000	239.998951
0.100000	249.995510
0.100000	259.989255
0.100000	269.980075
0.100000	279.967855
0.100000	289.952485
0.100000	299.967229
0.100000	309.978574
0.200000	319.986407
0.200000	329.990614
0.200000	339.991083
0.200000	349.987699
0.200000	359.980351
0.200000	369.968923
0.500000	379.953305
0.800000	389.966640
1.300000	399.975528
1.800000	409.979855
2.300000	419.979505
2.800000	429.974365
3.600000	439.964320
4.600000	449.949258
5.700000	459.962211
6.800000	469.969883
8.000000	479.972159
9.000000	489.968924
10.000000	499.960063
11.000000	509.945462
12.100000	519.958041
13.200000	529.964611
14.200000	539.965056
15.400000	549.959260
16.400000	559.947107
17.400000	569.961414
18.400000	579.969090
19.300000	589.970019
20.000000	599.964084
20.800000	609.951169
21.500000	619.963975
22.500000	629.969520
24.600000	639.967689
25.200000	649.958362
25.500000	659.974143
25.300000	669.982145
25.200000	679.982249
24.700000	689.974337
24.200000	699.958293
23.300000	709.966584
22.100000	719.966452
20.800000	729.957777
19.300000	739.972944
17.700000	749.979275
15.900000	759.976649
14.600000	769.964947
13.900000	779.976434
13.600000	789.978547
13.100000	799.971163
12.300000	809.986456
11.200000	819.991950
10.200000	829.987524
9.500000	839.973057
7.700000	849.980590
5.100000	859.977774
2.400000	869.964487
0.900000	879.972667
0.200000	889.970064
0.100000	899.956554
0.100000	909.963971
0.100000	919.960166
0.100000	929.945014
0.100000	939.950239
0.100000	949.943797
0.100000	959.957334
0.100000	969.958880
0.100000	979.948311
0.200000	989.957154
0.200000	999.953553
0.300000	1009.951125
0.200000	1019.973245
0.200000	1029.992398
0.200000	1040.008556
0.200000	1050.021689
0.200000	1060.031768
0.200000	1070.038764
0.300000	1080.042648
0.500000	1090.043390
0.700000	1100.040962
0.900000	1110.035334
1.200000	1120.026478
1.600000	1130.014365
2.000000	1139.998964
2.600000	1149.980248
3.300000	1159.958187
4.100000	1169.932753
4.900000	1179.903916
5.900000	1189.871646
6.900000	1199.901459
8.100000	1209.927737
9.400000	1219.950448
10.700000	1229.969564
12.200000	1239.985056
13.500000	1249.996894
15.000000	1260.005048
16.400000	1270.009489
17.800000	1280.010187
19.600000	1290.007114
21.000000	1300.000238
